{"feed":{"resourceType":"Bundle","title":"XDS Submission - prepared by Health Intersections Test Script","id":"urn:uuid:02f06039-da24-4585-953b-0e9da4e79f41","updated":"2013-07-01T13:11:33Z","author":[{"name":"XDS --> FHIR Reference Bridge","uri":"http://www.healthintersections.com.au/xds2fhir.js"}],"entry":[{"title":"Document Reference (XDS Entry)","id":"cid:f6791f11-ef7c-4877-a92b-adf7df4948a6@healthintersections.com.au","link":[{"rel":"self","href":"cid:f6791f11-ef7c-4877-a92b-adf7df4948a6@healthintersections.com.au"}],"updated":"2013-07-01T13:11:33Z","content":{"resourceType":"DocumentReference","extension":[{"url":"http://hl7.org/fhir/Profile/xds-profile#practiceSettingCode","valueCodeableConcept":{"coding":[{"system":"http://ihe.net/connectathon/practiceSettingCodes","code":"General Medicine","display":"General Medicine"}]}}],"text":{"status":"generated","div":"<div>\n            <a href=\"http://localhost:9556/svc/fhir/Binary/@1e404af3-077f-4bee-b7a6-a9be97e1ce32\">Document: urn:oid:129.6.58.92.88336</a>undefined, created 24/12/2005</div>"},"masterIdentifier":{"system":"urn:ietf:rfc:3986","value":"urn:oid:129.6.58.92.88336"},"subject":{"reference":"http://localhost/patient/search?identifier=http://acme.org/xds/patients!89765a87b"},"type":{"coding":[{"system":"http://ihe.net/connectathon/classCodes","code":"History and Physical","display":"History and Physical"}]},"author":[{"reference":"cid:af500afb-d680-4fa0-bcf2-ba1f5c5b096d@healthintersections.com.au"},{"reference":"cid:51b578b4-3ccb-4e67-b0dc-ef519d82ef2d@healthintersections.com.au"}],"created":"2005-12-24","indexed":"2013-07-01T23:11:33+10:00","status":"current","description":"Physical","primaryLanguage":"en-us","mimeType":"text/plain","format":["urn:oid:1.3.6.1.4.1.19376.1.5.3.1.1.16.1.4"],"location":"http://localhost:9556/svc/fhir/Binary/@1e404af3-077f-4bee-b7a6-a9be97e1ce32","context":{"period":{"start":"2004-12-23T08:00:00","end":"2004-12-23T08:01:00"}}}},{"title":"patient record","id":"http://localhost/patient/search?identifier=http://acme.org/xds/patients!89765a87b","link":[{"rel":"self","href":"http://localhost/patient/search?identifier=http://acme.org/xds/patients!89765a87b"}],"updated":"2013-07-01T13:11:33Z","content":{"resourceType":"Patient","text":{"status":"generated","div":"<div>Person DOE, John, M, dob: 27/05/1956</div>"},"identifier":[{"system":"usual","value":"MRN"}],"name":[{"use":"usual","text":"DOE, John","family":["Doe"],"given":["John"]}],"birthDate":"1956-05-27"},"summary":"<div>Person DOE, John, M, dob: 27/05/1956</div>"},{"title":"Author","id":"cid:af500afb-d680-4fa0-bcf2-ba1f5c5b096d@healthintersections.com.au","link":[{"rel":"self","href":"cid:af500afb-d680-4fa0-bcf2-ba1f5c5b096d@healthintersections.com.au"}],"updated":"2013-07-01T13:11:33Z","content":{"resourceType":"Practitioner","extension":[{"url":"http://hl7.org/fhir/Profile/xds-profile#author-institution-repeats","valueResource":{"display":"Parma Community"}}],"text":{"status":"generated","div":"<div>Author Person @ Cleveland Clinic</div>"},"identifier":[{"system":"usual"}],"name":{"use":"usual","family":["Smitty"],"given":["Gerald"]},"organization":{"display":"Cleveland Clinic"},"role":[{"coding":[{"code":"Attending"}]}],"specialty":[{"coding":[{"code":"Orthopedic"}]}]},"summary":"<div>Author Person @ Cleveland Clinic</div>"},{"title":"Author","id":"cid:51b578b4-3ccb-4e67-b0dc-ef519d82ef2d@healthintersections.com.au","link":[{"rel":"self","href":"cid:51b578b4-3ccb-4e67-b0dc-ef519d82ef2d@healthintersections.com.au"}],"updated":"2013-07-01T13:11:33Z","content":{"resourceType":"Practitioner","extension":[{"url":"http://hl7.org/fhir/Profile/xds-profile#author-institution-repeats","valueResource":{"display":"Berea Community"}}],"text":{"status":"generated","div":"<div>Author Person @ Cleveland Clinic</div>"},"identifier":[{"system":"usual"}],"name":{"use":"usual","family":["Dopplemeyer"],"given":["Sherry"]},"organization":{"display":"Cleveland Clinic"},"role":[{"coding":[{"code":"Primary Surgon"}]}],"specialty":[{"coding":[{"code":"Orthopedic"}]}]},"summary":"<div>Author Person @ Cleveland Clinic</div>"},{"title":"binary document","id":"urn:uuid:1e404af3-077f-4bee-b7a6-a9be97e1ce32","link":[{"rel":"self","href":"urn:uuid:1e404af3-077f-4bee-b7a6-a9be97e1ce32"}],"updated":"2013-07-01T13:11:33Z","content":{"resourceType":"Binary","contentType":"text/plain","content":"YXNkYXNkYXNkYXNkYXNk"}}]}}